;; JPSS-2_VIIRS RSR
;;
;; Quinten Vanhellemont 2023-03-29
;; from J2_VIIRS_RSR_DAWG_At-Launch_Public_Release_V2_Jul2019
;;
;;
;; datasets: wavelength, RSR
;;
;; BAND I01
;;
593.294	0.0058441
593.795	0.0085426
593.796	0.0078637
594.281	0.0108297
594.784	0.0139341
594.829	0.014082
595.274	0.0187643
595.782	0.0250476
595.795	0.025105
596.29	0.0334491
596.803	0.0442276
596.814	0.04445
597.311	0.0590398
597.817	0.0789206
597.825	0.079756
598.317	0.105477
598.821	0.1417507
598.834	0.1436201
598.85	0.1437884
599.329	0.1852399
599.33	0.1868715
599.833	0.243286
599.837	0.2428981
599.846	0.2458768
600.332	0.3102851
600.806	0.3905175
600.832	0.3963892
601.304	0.4810748
601.803	0.5743832
601.83	0.5813404
602.293	0.6609801
602.784	0.7349477
602.817	0.7401072
603.272	0.7876825
603.76	0.8194851
603.795	0.8269868
604.319	0.8360901
604.775	0.8394271
604.785	0.8436311
605.272	0.8375007
605.79	0.8371841
606.788	0.8332732
606.853	0.8276415
607.783	0.8348855
607.799	0.8305886
608.238	0.8350272
608.741	0.8397341
608.776	0.8453699
608.787	0.8404065
609.233	0.8464096
609.735	0.851778
609.777	0.8570708
609.847	0.8495066
609.946	0.8525315
610.246	0.8561662
610.293	0.8533153
610.761	0.8568336
610.794	0.8537854
611.163	0.8583574
611.254	0.8560814
611.297	0.8521863
611.746	0.851629
611.77	0.8510293
611.857	0.8483858
612.245	0.8442669
612.302	0.8412015
612.75	0.8371239
612.782	0.8338559
612.814	0.8373687
613.329	0.8254312
613.756	0.8232369
613.771	0.8224124
613.784	0.8199813
614.275	0.8181423
614.305	0.8152552
614.748	0.8196119
614.749	0.8151031
614.805	0.8157652
615.271	0.8195731
615.761	0.8272813
616.259	0.8363547
616.748	0.8493471
617.251	0.8615654
617.741	0.8733698
618.255	0.8816348
618.738	0.8839671
618.813	0.8874232
619.223	0.8819349
619.269	0.8852745
619.74	0.8739428
619.783	0.877196
620.236	0.8657929
620.741	0.8520734
621.224	0.8376492
621.72	0.8256483
622.21	0.8162941
622.7	0.8127973
623.214	0.8132655
623.694	0.8202344
624.182	0.8309186
624.655	0.8473825
625.165	0.8640015
625.665	0.8844832
626.19	0.9021419
626.689	0.917389
627.164	0.9277403
627.68	0.93194
628.177	0.9307623
628.677	0.9244082
629.165	0.9161988
629.68	0.9052393
630.19	0.8963858
630.682	0.889203
631.419	0.8846431
631.677	0.883388
632.191	0.8840481
632.691	0.8885005
633.191	0.8923534
633.698	0.899348
634.234	0.903358
634.707	0.9068973
635.211	0.9082834
635.694	0.9067083
636.209	0.9040116
636.694	0.8988743
637.26	0.8955776
637.695	0.8914214
638.271	0.8889784
638.722	0.889506
639.274	0.892898
639.295	0.8955972
640.139	0.9007925
640.187	0.9043175
640.244	0.9113687
640.792	0.9247081
641.209	0.9359118
641.716	0.9499854
642.197	0.9612228
642.75	0.9700392
643.177	0.9752124
643.743	0.9769418
644.325	0.9757449
644.694	0.9694185
645.199	0.9612199
645.753	0.9515229
646.261	0.939455
646.671	0.9290977
647.192	0.9182322
647.689	0.9114126
648.179	0.9046841
648.681	0.9012068
649.182	0.8995577
649.67	0.8987492
650.197	0.9021136
650.724	0.9045738
651.186	0.9089186
651.709	0.9137572
652.275	0.9208096
652.706	0.9273501
653.254	0.9349326
653.735	0.9437191
654.241	0.951868
654.747	0.9615889
655.239	0.9709984
655.747	0.9791194
656.243	0.9873976
656.76	0.9930946
657.224	0.9972573
657.734	0.999884
658.249	0.9995068
658.731	0.9962094
658.818	0.9871541
659.234	0.9905684
659.271	0.9826384
659.718	0.9844218
659.761	0.9770205
660.278	0.9703255
660.778	0.9637388
661.284	0.9573563
661.805	0.9531212
662.284	0.950571
662.795	0.951008
663.319	0.9524756
663.807	0.9567504
664.301	0.9613136
664.788	0.9664157
665.357	0.9719813
665.801	0.9763202
666.303	0.9801875
666.818	0.9805286
667.299	0.9803258
667.784	0.9790081
668.295	0.9745797
668.784	0.9719808
669.288	0.9680415
669.759	0.9655328
670.271	0.9651327
670.768	0.9649952
671.286	0.9687727
671.771	0.9726212
672.315	0.9800266
672.863	0.9868197
673.27	0.9919253
673.804	0.9977818
673.866	1.0
674.283	0.9991857
674.329	0.9994469
674.773	0.9974044
674.835	0.9974014
675.321	0.9912668
675.84	0.9783367
676.342	0.9622705
676.838	0.9395436
677.334	0.9081482
677.867	0.8704262
678.352	0.8257313
678.857	0.7729556
679.562	0.6877745
679.828	0.6477979
680.23	0.5806928
680.606	0.5181812
680.634	0.5117583
681.088	0.4364254
681.75	0.3330813
681.839	0.3287182
682.231	0.2656675
682.549	0.217533
682.576	0.2130218
683.25	0.1443078
683.708	0.1098805
683.814	0.1109152
684.134	0.0836811
684.755	0.0568283
684.799	0.0561031
685.23	0.0424649
685.616	0.0337697
685.651	0.0332588
686.407	0.0226048
686.705	0.0178309
686.743	0.0177895
687.187	0.013541
687.578	0.0109263
687.588	0.0108088
688.277	0.0076077
688.684	0.006287
688.756	0.0062213
689.154	0.0050021
;;
;; BAND I02
;;
833.99	0.0052002
834.523	0.006176
834.539	0.0060856
835.072	0.0074742
835.664	0.0091582
835.822	0.0096039
836.326	0.0116362
836.34	0.0115652
836.869	0.0142677
837.455	0.0177077
837.474	0.0176051
837.512	0.0111484
838.005	0.0217814
838.545	0.0261626
838.561	0.026143
838.567	0.0261845
839.121	0.0318909
839.276	0.0335792
839.277	0.0335936
839.282	0.0335036
839.805	0.039816
840.335	0.046858
840.419	0.0473072
841.508	0.0658037
841.534	0.0663618
841.617	0.0678568
842.208	0.0792747
842.224	0.0802901
842.775	0.0924459
843.314	0.1068749
843.317	0.1067511
843.358	0.1077171
843.852	0.1227428
844.402	0.142641
844.405	0.1426688
844.436	0.1432822
845.031	0.1669027
845.135	0.1748175
845.192	0.1759167
845.675	0.2044427
846.32	0.2473609
846.349	0.2486828
846.872	0.2926335
847.412	0.3440795
847.42	0.3464092
847.965	0.4047347
848.148	0.426961
848.704	0.4970621
849.255	0.571729
849.824	0.6499243
850.453	0.7312182
850.99	0.7927876
851.549	0.8457194
851.743	0.8621976
852.86	0.9229765
853.417	0.9400831
854.009	0.9508251
854.593	0.9567098
855.173	0.9602523
855.316	0.961174
855.913	0.9644855
856.484	0.9675003
857.045	0.9708532
857.617	0.9739836
858.211	0.977242
858.346	0.9778221
858.826	0.9803956
858.902	0.9803331
858.904	0.9803716
859.45	0.9833211
860.055	0.9863987
860.201	0.9869748
860.784	0.98929
861.387	0.9913306
861.974	0.9935569
862.535	0.9951574
863.105	0.9967126
863.272	0.9967734
863.868	0.9982428
864.446	0.9990664
865.016	0.999137
865.601	0.9990659
865.739	0.9989998
866.321	0.9986964
866.858	0.9985843
867.441	0.9981698
867.619	0.997929
868.208	0.9978513
868.809	0.9978519
869.379	0.9976896
869.972	0.9983541
870.582	0.998899
870.688	0.9992677
871.23	0.9995299
871.851	0.9998207
872.513	1.0
873.096	0.9996094
873.234	0.9993556
873.722	0.9985284
873.823	0.9981331
873.825	0.9980059
874.405	0.9971668
874.989	0.995749
875.16	0.995168
875.785	0.9927795
876.389	0.9911514
876.957	0.9895739
877.548	0.9880892
877.693	0.987924
878.289	0.987258
878.866	0.9867743
879.442	0.9871146
879.67	0.9866803
880.258	0.9859995
880.88	0.985115
881.446	0.9824013
882.037	0.9753249
882.18	0.9728087
882.749	0.9609235
883.332	0.9400176
883.996	0.903847
884.626	0.8546955
884.774	0.8407786
885.37	0.7780563
885.949	0.7036678
886.568	0.6140225
887.246	0.5130242
887.903	0.4165878
888.588	0.3273994
889.167	0.2604723
889.259	0.2512204
889.346	0.2447137
889.917	0.1915983
890.504	0.1509241
890.531	0.1503207
890.645	0.1420164
891.235	0.1111438
891.251	0.1109585
891.836	0.0864612
892.513	0.0662526
892.57	0.0644202
893.131	0.052014
893.233	0.0500505
893.29	0.0489192
893.302	0.0487207
893.885	0.0391005
893.886	0.0391293
894.483	0.0316125
894.489	0.0314959
894.541	0.0313297
894.612	0.0302706
895.198	0.0247865
895.243	0.0240785
895.814	0.0199891
896.575	0.015674
896.588	0.0158037
897.126	0.013159
897.229	0.0126075
897.273	0.0125936
897.901	0.0105159
898.476	0.0088018
898.483	0.0086578
899.116	0.0073361
899.245	0.006988
899.252	0.0070621
899.829	0.0060412
900.15	0.0053826
;;
;; BAND I03
;;
1542.393	0.0054607
1543.27	0.0059456
1544.257	0.0066037
1545.482	0.0074509
1546.751	0.0083791
1547.976	0.0094367
1549.078	0.0104912
1550.346	0.0119045
1551.452	0.0133012
1552.669	0.0149092
1553.809	0.0166932
1554.906	0.018768
1555.951	0.0208648
1557.075	0.0234087
1558.133	0.0261567
1559.262	0.0295129
1560.28	0.0330293
1561.397	0.0373164
1562.494	0.0418562
1563.484	0.0471825
1564.544	0.0534743
1565.536	0.0607045
1566.653	0.0691116
1567.635	0.0789097
1568.772	0.0915584
1569.852	0.1061263
1570.885	0.1216027
1571.032	0.1241804
1571.109	0.1255624
1571.433	0.1312145
1571.894	0.1404115
1572.056	0.1439712
1572.994	0.1630327
1573.052	0.1647636
1574.012	0.1888424
1574.03	0.1891967
1575.052	0.2203913
1575.126	0.2219701
1576.101	0.2544594
1577.126	0.2923267
1577.173	0.2946213
1578.331	0.3441254
1579.316	0.3912369
1580.415	0.4473514
1581.455	0.504753
1582.579	0.5695229
1583.601	0.6274384
1584.645	0.6888707
1585.769	0.7539785
1586.833	0.8014123
1587.916	0.8485846
1588.97	0.8902684
1590.049	0.9235932
1591.064	0.946942
1592.042	0.9651081
1593.009	0.9783577
1594.052	0.9889285
1594.996	0.9949435
1595.963	0.9976573
1596.925	0.9984208
1597.93	0.9996105
1599.056	0.9994598
1600.004	0.9988121
1600.083	0.9990089
1601.031	0.9986516
1601.112	0.9981157
1601.818	0.9983295
1602.614	0.9985784
1603.513	0.9991354
1604.398	0.9994002
1605.217	1.0
1606.057	0.9998353
1606.917	0.9998736
1607.829	0.9996878
1608.669	0.9992428
1609.534	0.9982873
1610.428	0.9963866
1611.456	0.9944947
1612.331	0.9922433
1612.944	0.9878315
1613.427	0.9887921
1613.795	0.9859809
1613.849	0.9874339
1613.967	0.9870754
1614.972	0.984238
1615.044	0.9841655
1615.665	0.9797923
1615.86	0.9817984
1616.793	0.9794077
1617.565	0.9775959
1618.124	0.9735846
1618.42	0.9753771
1619.229	0.9740357
1619.268	0.9716706
1620.111	0.9705181
1621.065	0.9687155
1621.876	0.9673127
1622.913	0.9653343
1623.717	0.9632276
1624.626	0.9607055
1625.545	0.9572715
1626.369	0.952752
1627.18	0.9472795
1627.99	0.9421982
1628.871	0.9341424
1629.67	0.9255602
1630.534	0.9145925
1631.307	0.9022094
1632.138	0.8863655
1633.03	0.8706077
1633.853	0.8510135
1634.664	0.8318503
1635.441	0.8105772
1636.348	0.7841362
1637.119	0.7593561
1637.94	0.7322467
1638.744	0.7049231
1639.555	0.6758506
1640.39	0.650103
1641.216	0.6199236
1642.008	0.5893631
1642.801	0.561987
1643.584	0.5307315
1644.427	0.5026509
1645.328	0.4756429
1646.1	0.4503544
1646.942	0.4234956
1647.738	0.3963168
1648.624	0.3706272
1649.335	0.3490931
1650.265	0.3252506
1651.076	0.3037965
1651.969	0.2831447
1652.734	0.2653028
1653.506	0.2476548
1654.347	0.2299377
1655.157	0.2127946
1655.96	0.1987104
1656.832	0.1838697
1657.603	0.1714836
1658.424	0.1580619
1659.328	0.145438
1660.129	0.133874
1660.968	0.1238895
1661.742	0.114377
1662.574	0.1061932
1663.446	0.0973476
1664.227	0.0898844
1665.133	0.0824693
1665.937	0.0754241
1666.803	0.0690395
1667.613	0.0636614
1668.486	0.0584812
1669.345	0.0539127
1670.206	0.049611
1671.013	0.0456122
1671.889	0.0416305
1672.757	0.0380398
1673.701	0.0350003
1674.687	0.0320277
1675.598	0.0293435
1676.49	0.0268782
1677.523	0.0244287
1678.4	0.0223689
1679.495	0.0203543
1680.408	0.0187611
1681.408	0.017312
1682.44	0.0158187
1683.462	0.0144702
1684.463	0.0132104
1685.43	0.01218
1686.45	0.0112451
1687.473	0.0103766
1688.49	0.0095915
1689.508	0.0088129
1690.531	0.0081357
1691.72	0.0074932
1692.624	0.0069756
1693.638	0.0064583
1694.743	0.0060158
1695.857	0.005519
1696.814	0.0051528
;;
;; BAND M01
;;
397.46	0.0072576
397.548	0.0084056
397.796	0.0143706
397.962	0.0215462
398.034	0.0245591
398.29	0.0433504
398.464	0.0673867
398.525	0.074125
398.759	0.1167371
398.986	0.1676183
398.989	0.1715631
399.21	0.2258447
399.431	0.282592
399.586	0.322265
399.658	0.3385156
399.84	0.3780739
399.868	0.385167
400.103	0.4200021
400.299	0.4371749
400.331	0.4385437
400.512	0.448658
400.782	0.464372
400.807	0.4656818
401.266	0.4986177
401.74	0.52536
402.238	0.5469496
402.748	0.5680079
403.244	0.5840974
403.712	0.6026073
403.807	0.6088426
403.936	0.6129744
404.296	0.6307536
404.806	0.6475372
405.369	0.6676547
405.952	0.6978468
406.55	0.7288355
407.149	0.7561434
407.749	0.7818065
408.124	0.7958301
408.615	0.8080356
409.137	0.8124638
409.388	0.8139647
409.649	0.812995
410.126	0.8132966
410.348	0.8123396
410.807	0.8074415
411.241	0.8013448
411.673	0.8119739
412.111	0.8460299
412.565	0.8929383
413.009	0.9273508
413.464	0.9399641
413.681	0.9389181
413.939	0.9341343
414.111	0.9310396
414.294	0.9286969
414.811	0.927959
414.953	0.9318066
415.355	0.93774
415.487	0.9427788
415.934	0.9503612
416.161	0.9526797
416.566	0.9532346
417.087	0.952646
417.597	0.963475
417.665	0.9596803
417.684	0.9603152
417.792	0.964353
418.094	0.9826949
418.318	0.9850798
418.326	0.9853779
418.445	0.9893612
418.601	1.0
418.986	0.9964803
419.001	0.9964348
419.071	0.9994142
419.209	0.98754
419.555	0.951244
419.644	0.9328599
419.646	0.9328549
420.039	0.8328765
420.049	0.8324808
420.05	0.8302335
420.187	0.7884229
420.269	0.7576308
420.309	0.7445855
420.366	0.7178238
420.373	0.7132688
420.375	0.7118974
420.389	0.7070415
420.392	0.707948
420.414	0.6991652
420.416	0.6997665
420.428	0.6947739
420.442	0.6890769
420.445	0.6867793
420.481	0.6666086
420.518	0.6573328
420.585	0.6226589
420.902	0.4472821
421.321	0.2371766
421.734	0.1274916
422.067	0.0847039
422.192	0.074031
422.193	0.0732866
422.533	0.0516643
422.543	0.0501835
422.703	0.0412619
422.763	0.0392181
423.009	0.0277292
423.01	0.0269529
423.22	0.0186717
423.242	0.0184299
423.474	0.0116226
423.506	0.0104664
423.738	0.0070456
423.775	0.0062128
;;
;; BAND M02
;;
434.526	0.0105308
434.532	0.0108168
434.595	0.0135007
434.771	0.0191592
435.133	0.0505863
435.379	0.0833284
435.388	0.0847789
435.395	0.0854923
435.59	0.1429777
435.68	0.160087
436.018	0.3226754
436.048	0.337653
436.176	0.3858192
436.367	0.4810236
436.449	0.5426786
436.669	0.6242823
436.797	0.6710533
436.912	0.7134453
437.218	0.7481051
437.225	0.7495729
437.25	0.7488225
437.582	0.7157435
437.699	0.697869
437.711	0.7014346
437.726	0.6981141
438.06	0.6646881
438.333	0.6748055
438.577	0.7050094
438.83	0.7472496
439.062	0.7867328
439.09	0.7946882
439.275	0.8173448
439.492	0.8439545
439.618	0.8507213
439.646	0.8523953
439.892	0.8689565
439.925	0.8659083
440.369	0.8850044
440.834	0.8984845
441.309	0.8982756
441.77	0.8810107
442.278	0.8653241
442.814	0.8723381
443.404	0.9064381
443.861	0.9452592
444.003	0.9543023
444.451	0.9859227
444.983	1.0
445.472	0.9846345
445.842	0.9544106
445.986	0.9422731
446.207	0.9263121
446.386	0.9099314
446.684	0.8956074
447.148	0.8910346
447.599	0.9124563
448.041	0.9461796
448.504	0.9753789
448.963	0.9825363
449.07	0.9801516
449.668	0.9388494
449.902	0.9250114
450.409	0.8911747
450.843	0.8760448
450.926	0.879112
450.961	0.8749598
451.274	0.8732614
451.312	0.8727749
451.44	0.8751512
451.711	0.8628336
451.744	0.8614151
451.77	0.8599665
451.975	0.8505742
452.158	0.8254676
452.374	0.7915216
452.428	0.7757182
452.563	0.7603194
452.637	0.7336138
452.676	0.7244095
452.689	0.7216943
452.896	0.6624371
453.086	0.5949293
453.18	0.5712891
453.206	0.5617512
453.306	0.5256375
453.312	0.5234275
453.467	0.4670067
453.746	0.3537157
453.76	0.3326444
454.024	0.2441397
454.111	0.2131716
454.171	0.1943908
454.265	0.1659627
454.307	0.1558783
454.411	0.1235441
454.591	0.0976934
454.878	0.0640075
454.914	0.0614203
455.033	0.0503595
455.098	0.0478314
455.429	0.0330462
455.566	0.0271656
455.724	0.0237228
455.945	0.0188825
456.069	0.0156825
456.231	0.013645
456.501	0.0099531
456.556	0.008822
456.727	0.0073458
456.981	0.00543
;;
;; BAND M03
;;
476.073	0.0097091
476.381	0.0150994
476.406	0.015998
476.705	0.0269692
476.9	0.0395606
477.008	0.0495622
477.252	0.0831836
477.437	0.1180239
477.57	0.1622389
477.714	0.2125043
477.819	0.253398
477.831	0.2549793
477.884	0.2777464
477.984	0.3214557
478.107	0.3941924
478.585	0.6520323
478.775	0.7427721
478.827	0.7629777
478.974	0.8153694
479.185	0.8573299
479.252	0.8648298
479.391	0.8678371
479.592	0.8664406
479.645	0.8680821
479.804	0.8649426
480.0	0.8642852
480.059	0.8653926
480.203	0.8667163
480.216	0.8690056
480.391	0.870258
480.474	0.8726452
480.595	0.8746201
480.771	0.8779746
480.871	0.8803185
480.987	0.881422
481.182	0.8838398
481.303	0.8825727
481.382	0.8860144
481.589	0.888232
481.657	0.8864274
481.715	0.8898768
481.746	0.8875461
481.815	0.8911257
481.818	0.8919084
482.067	0.8958561
482.603	0.9097863
482.869	0.9199405
483.236	0.9311708
483.538	0.9410997
483.546	0.9440676
483.838	0.949392
484.1	0.9546657
484.264	0.9598805
484.366	0.957818
484.483	0.9552495
484.488	0.9553143
484.501	0.9585824
484.502	0.9585739
484.535	0.9615947
484.547	0.9626244
484.865	0.9617904
485.339	0.9589598
486.078	0.9565015
486.772	0.9590262
487.436	0.962332
487.903	0.9636805
488.375	0.9648972
488.405	0.9643823
488.863	0.9621451
489.37	0.962944
489.875	0.965361
490.318	0.9624489
490.574	0.9601541
490.6	0.9598866
491.478	0.9490194
491.785	0.9562598
492.168	0.9583046
492.584	0.9646486
493.075	0.9742429
493.66	0.9860507
494.205	0.9953618
494.689	0.9998063
495.118	1.0
495.333	0.998972
495.652	0.9958947
496.146	0.9869753
496.385	0.9728704
496.557	0.9650414
496.618	0.9617029
496.843	0.9443299
497.01	0.9257978
497.076	0.9162512
497.356	0.8649691
497.458	0.8435697
497.529	0.8216713
497.738	0.7555759
497.905	0.6996962
497.977	0.6685593
498.208	0.5696823
498.409	0.4868941
498.46	0.4542575
498.711	0.3483173
498.89	0.279111
498.919	0.2675383
499.157	0.1896673
499.387	0.1352743
499.406	0.1272299
499.657	0.0840253
499.881	0.0588239
499.965	0.0516853
500.238	0.032614
500.347	0.0284936
500.892	0.0143379
501.366	0.0087644
501.854	0.0057658
;;
;; BAND M04
;;
541.576	0.0070389
542.075	0.0139571
542.566	0.0277533
542.798	0.0390227
542.8	0.0393818
542.997	0.0527363
543.376	0.0959057
543.435	0.103929
543.487	0.1113461
543.53	0.1186788
543.802	0.1847914
544.021	0.2383235
544.028	0.2437014
544.193	0.2981424
544.241	0.306998
544.405	0.375511
544.755	0.521114
544.819	0.549756
544.895	0.5738066
545.024	0.6404701
545.509	0.8177677
545.523	0.8228101
545.554	0.8319478
545.623	0.8679675
545.998	0.9397079
546.177	0.9611113
546.29	0.9707878
546.348	0.976361
546.542	0.9855219
546.875	0.9928728
547.168	0.9928195
547.46	0.9899468
547.553	0.9947343
547.72	0.9860467
547.792	0.9843955
547.966	0.982086
548.182	0.9856946
548.202	0.9789526
548.442	0.9754306
548.678	0.9789096
549.161	0.9780596
549.61	0.9775402
550.1	0.9733308
550.51	0.9659842
550.567	0.9718985
550.7	0.9662281
550.851	0.9734513
550.927	0.9681411
551.131	0.9769061
551.145	0.9704755
551.36	0.97354
551.566	0.9773845
551.59	0.9775503
551.723	0.9798334
551.745	0.9803549
551.772	0.980363
552.053	0.9864208
552.197	0.987773
552.381	0.9903459
552.818	0.9954983
553.045	0.9949079
553.227	0.9939703
553.392	0.9919436
553.401	0.9923947
553.6	0.9899785
553.732	0.9878121
553.738	0.9869699
553.741	0.9868391
553.752	0.9861504
553.795	0.9855334
553.996	0.9822615
554.165	0.9815016
554.483	0.9697663
555.023	0.9536123
555.502	0.936839
555.875	0.9233514
556.375	0.9113881
556.857	0.9088497
557.258	0.9113008
557.283	0.9154653
557.769	0.9324688
558.314	0.9565106
558.715	0.9747259
559.178	0.9909613
559.683	1.0
560.222	0.999743
560.693	0.9937751
560.976	0.9928377
561.591	0.97806
561.891	0.9744076
561.955	0.9722047
561.967	0.9700515
562.075	0.9736668
562.176	0.9722945
562.205	0.9719972
562.219	0.9699986
562.842	0.9663619
563.175	0.9717539
563.373	0.9708464
563.689	0.9744124
564.281	0.9711818
564.287	0.9705517
564.639	0.9426522
564.812	0.9181313
565.189	0.8300671
565.21	0.8222223
565.67	0.6634398
565.694	0.6425769
566.02	0.4871984
566.072	0.4618637
566.412	0.3108313
566.424	0.3094517
567.228	0.0848416
567.693	0.0414973
567.721	0.0391828
567.73	0.038904
568.018	0.0258804
568.13	0.021761
568.133	0.0212182
568.296	0.0171991
568.366	0.0162016
568.439	0.0143949
568.793	0.0091485
568.798	0.0091195
568.827	0.0088279
569.296	0.0052098
;;
;; BAND M05
;;
649.67	0.0055709
649.735	0.0055027
650.197	0.0067407
650.228	0.0066989
650.724	0.0081874
650.744	0.0081007
651.186	0.0099033
651.282	0.0100035
651.709	0.0121433
651.771	0.0122224
652.233	0.0150823
652.275	0.0150166
652.706	0.0185345
652.774	0.0186581
653.254	0.0231209
653.257	0.0231534
653.735	0.0288777
653.745	0.0288022
654.241	0.0359959
654.244	0.0358009
654.747	0.0450305
654.767	0.0448732
655.239	0.05618
655.261	0.0562314
655.747	0.0703444
655.751	0.0706885
656.243	0.0876599
656.266	0.0883503
656.76	0.1089567
656.789	0.1103194
657.224	0.1353733
657.264	0.1364939
657.734	0.1675388
657.782	0.1690813
658.249	0.205994
658.281	0.2073166
658.731	0.2508156
658.75	0.251734
658.818	0.25856
658.921	0.2666528
659.234	0.301467
659.262	0.3027891
659.271	0.3062754
659.352	0.314251
659.718	0.3587346
659.761	0.3641918
659.769	0.3609761
659.854	0.3722732
660.278	0.4285982
660.357	0.4375924
660.778	0.4976363
660.866	0.5055518
661.284	0.5681862
661.366	0.5767375
661.805	0.6398815
661.881	0.6469813
662.284	0.707147
662.369	0.7133808
662.795	0.7696466
662.844	0.7740746
663.319	0.8277095
663.363	0.8303241
663.807	0.8747607
663.875	0.877249
664.301	0.9140085
664.355	0.9273137
664.788	0.9442685
664.857	0.9439028
665.353	0.9655133
665.357	0.9675737
665.801	0.9827335
665.834	0.9805854
666.303	0.9929964
666.34	0.9899915
666.818	0.9982337
666.829	0.9947563
667.299	0.9999179
667.353	0.99656
667.784	0.9996398
667.842	0.9960352
668.295	0.9981256
668.316	0.9944131
668.784	0.9958173
668.853	0.9921431
669.288	0.9938869
669.329	0.9902006
669.759	0.9920986
669.82	0.9885723
670.271	0.9910417
670.33	0.9877341
670.768	0.9905996
670.817	0.9873914
671.286	0.9909471
671.321	0.9876432
671.771	0.9920118
671.824	0.9887097
672.315	0.993403
672.326	0.9900255
672.835	0.9919737
672.863	0.9953701
673.27	0.996997
673.33	0.9937099
673.804	0.9985268
673.82	0.995165
673.866	0.996163
674.283	0.9997704
674.329	0.9971812
674.344	0.9964671
674.773	1.0
674.83	0.9960923
674.835	0.9969873
675.321	0.9946068
675.324	0.9939431
675.836	0.988671
675.84	0.9892585
676.342	0.9792479
676.346	0.9785081
676.838	0.9634707
676.851	0.963004
677.334	0.9395504
677.402	0.939629
677.867	0.9080562
677.878	0.9076746
678.352	0.8688388
678.373	0.8690806
678.857	0.8211289
678.881	0.8208682
679.385	0.7687782
679.422	0.7698161
679.828	0.7280581
679.908	0.7104855
680.23	0.678999
680.606	0.6370152
680.634	0.6323209
681.088	0.5805451
681.75	0.5154902
681.839	0.5098032
682.231	0.4667186
682.549	0.4319268
682.576	0.4284276
683.25	0.3686885
683.708	0.3307922
683.814	0.3342873
684.134	0.2963506
684.755	0.2501866
684.799	0.2474877
685.23	0.2156295
685.616	0.1903036
685.651	0.1874063
686.407	0.1466806
686.705	0.1268585
686.743	0.1247514
687.187	0.1043698
687.578	0.0892013
687.588	0.0884339
688.277	0.0662349
688.684	0.0565056
688.756	0.0549168
689.154	0.0464198
689.592	0.0390073
690.245	0.0300886
690.628	0.0261271
690.686	0.0255726
691.11	0.021998
691.655	0.019386
691.808	0.0176043
692.237	0.0152561
692.611	0.0135475
692.649	0.0133787
693.089	0.0117437
693.483	0.0104972
693.511	0.0104035
693.812	0.0095464
694.203	0.008555
694.266	0.0085607
694.582	0.007711
694.657	0.0075413
694.689	0.0075688
695.062	0.0067647
695.487	0.0060112
695.78	0.0055764
;;
;; BAND M06
;;
736.115	0.0072449
736.494	0.0105141
736.544	0.0110114
737.115	0.0205438
737.673	0.0400881
737.692	0.0405978
737.697	0.0412354
737.782	0.0457132
738.14	0.0719123
738.24	0.0814608
738.247	0.0825022
738.633	0.1332951
738.675	0.1399298
738.767	0.1566471
739.091	0.2279812
739.164	0.2429949
739.46	0.3356594
739.582	0.3772536
739.622	0.3912327
739.984	0.5290023
740.021	0.5436073
740.174	0.6052862
740.412	0.6964844
740.565	0.752907
740.608	0.7670542
740.91	0.8574205
740.994	0.8779155
741.178	0.915106
741.366	0.9440134
741.734	0.977561
741.772	0.9792561
742.218	0.9941641
742.748	0.9988843
743.261	0.9996883
743.689	0.9989212
744.168	0.9977215
744.614	0.9962271
745.124	0.9956565
745.54	0.9963317
746.103	0.9973744
746.576	0.9985637
747.269	1.0
747.745	0.9998103
747.795	0.9996017
748.251	0.9987379
748.258	0.9986977
748.714	0.9976912
749.191	0.9963976
749.682	0.994413
750.133	0.9927866
750.631	0.9913119
751.103	0.9892144
751.561	0.9863379
752.107	0.9807205
752.55	0.9678612
752.845	0.9509472
752.885	0.947618
752.951	0.9421865
753.129	0.9234375
753.35	0.894175
753.466	0.8747929
753.796	0.8062532
753.846	0.7934499
754.26	0.6714856
754.303	0.6572337
754.325	0.6495033
754.729	0.5064064
754.769	0.4920356
754.814	0.4794253
755.212	0.3388154
755.261	0.3236026
755.302	0.3110036
755.7	0.2063775
755.74	0.1974529
755.764	0.1927658
756.202	0.1228703
756.205	0.1166251
756.264	0.1105122
756.638	0.0708453
756.707	0.0654714
756.71	0.0684499
757.18	0.0381114
757.634	0.0236661
757.652	0.0227539
758.17	0.0133807
758.359	0.0109731
758.609	0.0087747
758.625	0.0084017
759.106	0.005312
;;
;; BAND M07
;;
834.523	0.0054622
834.539	0.0055399
835.072	0.0066015
835.664	0.0081297
835.822	0.008537
836.326	0.0103665
836.34	0.0104429
836.869	0.0126829
837.455	0.0157046
837.474	0.0158846
837.512	0.0100697
838.005	0.0192704
838.545	0.0234394
838.561	0.0236256
838.567	0.0236132
839.121	0.0286713
839.276	0.0304103
839.277	0.0304151
839.282	0.0302171
839.805	0.0360633
840.335	0.0427747
840.419	0.0430837
841.508	0.0605182
841.534	0.061023
841.617	0.0625141
842.208	0.0732339
842.224	0.0741225
842.775	0.0854486
843.314	0.0987592
843.317	0.0982645
843.358	0.0994546
843.852	0.1130148
844.402	0.1311539
844.405	0.1311912
844.436	0.1324447
845.031	0.1529784
845.135	0.1604148
845.192	0.1622649
845.675	0.187085
846.32	0.2264838
846.349	0.2286576
846.872	0.2673764
847.412	0.3145246
847.42	0.3181726
847.965	0.3718399
848.148	0.3919712
848.704	0.4600427
849.255	0.5330499
849.824	0.6106637
850.453	0.6955794
850.99	0.7602681
851.549	0.8200439
851.743	0.8380072
852.86	0.9132537
853.417	0.9338015
854.009	0.9470557
854.593	0.9545556
855.173	0.9592758
855.316	0.9602726
855.913	0.9637396
856.484	0.9671848
857.045	0.9701811
857.617	0.9727514
858.211	0.9759482
858.346	0.9768185
858.826	0.9794801
858.902	0.980115
858.904	0.9800864
859.45	0.9826967
860.055	0.9855548
860.201	0.9861871
860.784	0.9883859
861.387	0.9907535
861.974	0.9928073
862.535	0.9949159
863.105	0.9965395
863.272	0.9969775
863.868	0.9981829
864.446	0.9989614
865.016	0.9995036
865.601	0.9994247
865.739	0.9995573
866.321	0.9991572
866.858	0.9989665
867.441	0.9985611
867.619	0.9984124
868.208	0.9980443
868.809	0.9976467
869.379	0.9978113
869.972	0.9982362
870.582	0.9988494
870.688	0.9987647
871.23	0.9994315
871.851	1.0
872.513	0.9999124
873.096	0.9998097
873.234	0.9996701
873.722	0.9991107
873.823	0.9989348
873.825	0.9988117
874.405	0.9978977
874.989	0.9963612
875.16	0.9959404
875.785	0.9940371
876.389	0.9918847
876.957	0.99027
877.548	0.9888712
877.693	0.9886222
878.289	0.9873627
878.866	0.9869955
879.442	0.9872506
879.67	0.9869737
880.258	0.9869504
880.88	0.9860197
881.446	0.9832522
882.037	0.9791806
882.18	0.9777934
882.749	0.9673915
883.332	0.9510793
883.996	0.9205179
884.626	0.878925
884.774	0.8669323
885.37	0.8103272
885.949	0.7401184
886.568	0.6561121
887.246	0.5545121
887.903	0.4561595
888.588	0.3631971
889.167	0.2909585
889.259	0.2836038
889.346	0.2737732
889.917	0.2159904
890.504	0.1687781
890.531	0.1693161
890.645	0.1587351
891.235	0.1255687
891.251	0.1256831
891.836	0.0973119
892.513	0.0744138
892.57	0.0719556
893.131	0.0578628
893.233	0.0555494
893.29	0.054322
893.302	0.0541461
893.885	0.0430932
893.886	0.0430773
894.483	0.034812
894.489	0.0347194
894.541	0.0348221
894.612	0.033188
895.198	0.0267646
895.243	0.0264852
895.814	0.0217709
896.575	0.0168714
896.588	0.017335
897.126	0.0141594
897.229	0.0137023
897.273	0.0135489
897.901	0.0110936
898.476	0.0093101
898.483	0.0093092
899.116	0.0077028
899.245	0.0074627
899.252	0.0074107
899.829	0.0062317
900.15	0.0057386
900.574	0.0050903
;;
;; BAND M08
;;
1225.173	0.0070535
1225.634	0.0097543
1225.949	0.012502
1226.215	0.0153448
1226.234	0.0152559
1227.112	0.0311623
1228.087	0.0642402
1228.152	0.0709935
1228.216	0.0735053
1229.141	0.1494368
1229.217	0.1742417
1229.248	0.1769402
1230.71	0.4330589
1231.452	0.571468
1231.636	0.5942752
1231.906	0.65906
1231.918	0.6787861
1231.937	0.6858054
1232.143	0.6932666
1232.763	0.7691731
1233.226	0.8183011
1233.301	0.8241939
1233.449	0.8370924
1233.979	0.8711443
1234.014	0.8710935
1234.841	0.9128983
1235.14	0.9197529
1235.51	0.9373557
1236.583	0.961854
1236.586	0.9632178
1236.695	0.9646966
1236.732	0.9667334
1236.736	0.958862
1236.756	0.9638645
1236.814	0.9650078
1236.926	0.9666247
1236.989	0.9644909
1237.009	0.9693088
1237.042	0.9697676
1237.09	0.9726533
1237.191	0.9729386
1237.685	0.9784695
1237.734	0.9759431
1237.735	0.9758658
1237.737	0.9761216
1237.802	0.9774369
1238.308	0.9831573
1238.348	0.9834043
1238.964	0.9906296
1239.171	0.992345
1239.972	1.0
1240.316	0.9921179
1240.505	0.9956425
1240.766	0.9802295
1240.979	0.9769214
1241.034	0.9807475
1241.091	0.97391
1241.241	0.971518
1241.352	0.9761626
1241.442	0.9612044
1241.641	0.9573519
1241.766	0.9584265
1241.79	0.9611193
1242.493	0.9204972
1242.946	0.9004703
1243.046	0.9037726
1243.374	0.8866705
1243.788	0.8761682
1244.069	0.8727598
1244.411	0.8703724
1244.507	0.869797
1244.523	0.8748654
1245.027	0.8734147
1245.551	0.8809701
1245.915	0.8905862
1246.066	0.8908416
1246.651	0.9008835
1247.124	0.9072495
1247.292	0.912931
1247.741	0.9139181
1248.263	0.9172143
1248.341	0.9220907
1248.879	0.9177821
1249.331	0.9192774
1249.487	0.9075181
1250.038	0.8700228
1250.248	0.8621988
1250.607	0.7837026
1251.175	0.6549514
1251.252	0.6158715
1251.701	0.474861
1252.021	0.3872242
1252.326	0.2844443
1252.814	0.1800993
1252.952	0.1629453
1253.301	0.1105632
1253.751	0.0744762
1253.822	0.0682632
1254.318	0.0439501
1254.624	0.0340901
1254.638	0.034473
1254.714	0.0310192
1255.213	0.0213299
1255.513	0.0180372
1255.642	0.0155144
1256.088	0.0116525
1256.29	0.0106614
1256.541	0.0086334
1257.042	0.0066997
;;
;; BAND M09
;;
1369.038	0.0097338
1370.157	0.0205308
1371.254	0.0486871
1372.376	0.1269708
1372.944	0.19676
1373.515	0.2926121
1374.082	0.4164441
1375.173	0.7308364
1376.297	0.9523286
1377.4	1.0
1377.947	0.9669746
1379.414	0.9580134
1381.318	0.9816235
1383.993	0.9587562
1386.844	0.8701704
1388.608	0.6654856
1389.096	0.5988977
1389.209	0.5755839
1390.085	0.4330079
1390.496	0.361057
1390.925	0.3073471
1391.319	0.2563473
1391.693	0.2112855
1391.704	0.210963
1392.98	0.1135829
1393.414	0.0891649
1393.801	0.0725414
1394.188	0.0592563
1396.807	0.015357
1397.249	0.0125987
1397.696	0.0101297
1397.721	0.0100422
1398.117	0.0083576
1398.544	0.0069419
1398.977	0.0056161
;;
;; BAND M10
;;
1542.393	0.0053138
1543.27	0.0057835
1544.257	0.0064451
1545.482	0.0072638
1546.751	0.0082311
1547.976	0.0093305
1549.078	0.0103905
1550.346	0.0116843
1551.452	0.0130983
1552.669	0.0146669
1553.809	0.0163542
1554.906	0.0183823
1555.951	0.0204912
1557.075	0.0230608
1558.133	0.0257137
1559.262	0.0290337
1560.28	0.0326298
1561.397	0.0368258
1562.494	0.0412869
1563.484	0.0465397
1564.544	0.0525464
1565.536	0.0593827
1566.653	0.0675687
1567.635	0.0771179
1568.772	0.0891533
1569.852	0.1028316
1570.885	0.1177238
1571.032	0.1202161
1571.109	0.1215218
1571.433	0.1270534
1571.894	0.1363006
1572.056	0.1397508
1572.994	0.158481
1573.052	0.1601514
1574.012	0.183235
1574.03	0.1836595
1575.052	0.2136764
1575.126	0.2150259
1576.101	0.247098
1577.126	0.2848138
1577.173	0.287084
1578.331	0.3360357
1579.316	0.3823358
1580.415	0.4379259
1581.455	0.4958342
1582.579	0.5614502
1583.601	0.6195364
1584.645	0.6797708
1585.769	0.7452958
1586.833	0.7943536
1587.916	0.8426944
1588.97	0.8833178
1590.049	0.9166675
1591.064	0.9415573
1592.042	0.9613721
1593.009	0.9747767
1594.052	0.9861448
1594.996	0.9932439
1595.963	0.9973846
1596.925	0.999598
1597.93	1.0
1599.056	0.9984762
1600.004	0.9967813
1600.083	0.9967395
1601.031	0.9946902
1601.112	0.9940986
1601.818	0.9926042
1602.614	0.9911827
1603.513	0.9894545
1604.398	0.9882442
1605.217	0.9874882
1606.057	0.986616
1606.917	0.9858156
1607.829	0.9852676
1608.669	0.9848821
1609.534	0.9843217
1610.428	0.9837452
1611.456	0.9836164
1612.331	0.9830975
1612.944	0.9793831
1613.427	0.9803688
1613.795	0.9793832
1613.849	0.9796129
1613.967	0.9793573
1614.972	0.9774191
1615.044	0.9772803
1615.665	0.975374
1615.86	0.9755659
1616.793	0.973822
1617.565	0.9726908
1618.124	0.9712108
1618.42	0.9712234
1619.229	0.9702427
1619.268	0.9698515
1620.111	0.9690039
1621.065	0.967665
1621.876	0.9668337
1622.913	0.9656927
1623.717	0.9641689
1624.626	0.9618508
1625.545	0.9585535
1626.369	0.9542814
1627.18	0.949192
1627.99	0.9439009
1628.871	0.9355016
1629.67	0.9264232
1630.534	0.9153082
1631.307	0.9030705
1632.138	0.8879625
1633.03	0.8724273
1633.853	0.8527736
1634.664	0.832553
1635.441	0.8116326
1636.348	0.7857413
1637.119	0.7626061
1637.94	0.7358375
1638.744	0.7089462
1639.555	0.6784682
1640.39	0.6524047
1641.216	0.6215261
1642.008	0.5923948
1642.801	0.5652736
1643.584	0.5349525
1644.427	0.5056117
1645.328	0.4778751
1646.1	0.4514811
1646.942	0.4251471
1647.738	0.3983128
1648.624	0.3738971
1649.335	0.3520503
1650.265	0.3279839
1651.076	0.3052605
1651.969	0.2844403
1652.734	0.2664082
1653.506	0.2496423
1654.347	0.2322207
1655.157	0.215179
1655.96	0.2004293
1656.832	0.1850255
1657.603	0.1721429
1658.424	0.1588084
1659.328	0.1466386
1660.129	0.1356013
1660.968	0.1255293
1661.742	0.1156792
1662.574	0.1069856
1663.446	0.0982689
1664.227	0.0905464
1665.133	0.0833117
1665.937	0.0762409
1666.803	0.0699977
1667.613	0.0643793
1668.486	0.0589059
1669.345	0.0543266
1670.206	0.050007
1671.013	0.0459014
1671.889	0.0422708
1672.757	0.038598
1673.701	0.0354882
1674.687	0.0323129
1675.598	0.0295641
1676.49	0.0272349
1677.523	0.0247593
1678.4	0.0227115
1679.495	0.0205222
1680.408	0.01893
1681.408	0.0172361
1682.44	0.0156271
1683.462	0.0144268
1684.463	0.0132026
1685.43	0.0121684
1686.45	0.011089
1687.473	0.0102138
1688.49	0.0094249
1689.508	0.0087246
1690.531	0.0080094
1691.72	0.0072959
1692.624	0.0068488
1693.638	0.006263
1694.743	0.0058808
1695.857	0.0055101
1696.814	0.0051444
;;
;; BAND M11
;;
2202.985	0.005552759
2204.305	0.006953766
2205.6	0.008737674
2206.895	0.01092721
2208.195	0.01371966
2209.495	0.01714115
2210.8	0.02171938
2212.09	0.02741212
2213.4	0.03491482
2214.695	0.04464385
2216.0	0.05739707
2217.305	0.07404007
2218.595	0.09531189
2219.905	0.1238828
2221.205	0.159567
2222.505	0.2065098
2223.795	0.2627119
2225.095	0.3308003
2226.41	0.4119002
2227.705	0.4984678
2228.995	0.5925936
2230.305	0.6849273
2231.585	0.7667412
2232.905	0.8416433
2234.2	0.9000253
2235.485	0.94296
2236.805	0.9721322
2238.105	0.9890769
2239.41	0.9963052
2240.695	0.9961098
2241.995	0.9910741
2243.295	0.9800053
2244.59	0.9674362
2245.905	0.9553365
2247.195	0.9465886
2248.51	0.9399476
2249.81	0.9351938
2251.105	0.9331805
2252.41	0.9335984
2253.7	0.9355921
2254.99	0.9396612
2256.31	0.943197
2257.585	0.9447131
2258.895	0.944113
2260.2	0.9451302
2261.495	0.9531136
2262.785	0.9677918
2264.105	0.9850842
2265.405	0.9985718
2266.695	1.0
2268.01	0.9838503
2269.305	0.9474064
2270.595	0.8903186
2271.9	0.8131439
2273.2	0.7145852
2274.5	0.6089191
2275.785	0.4978831
2277.09	0.3941015
2278.41	0.3017248
2279.705	0.2290229
2281.01	0.1707254
2282.31	0.1268918
2283.59	0.09544002
2284.885	0.07133895
2286.195	0.0535145
2287.49	0.04045037
2288.785	0.03083579
2290.1	0.02370631
2291.395	0.01837313
2292.7	0.01434753
2294.005	0.01134086
2295.295	0.009008296
2296.59	0.00715157
2297.885	0.005726046
